  Detailed Percentile spectrum:
       Value   Percentile   TotalCount 1/(1-Percentile)

       0.114     0.000000            1         1.00
       0.946     0.100000         9771         1.11
       1.291     0.200000        19512         1.25
       1.569     0.300000        29242         1.43
       1.811     0.400000        38998         1.67
       2.033     0.500000        48748         2.00
       2.141     0.550000        53689         2.22
       2.243     0.600000        58570         2.50
       2.345     0.650000        63443         2.86
       2.449     0.700000        68260         3.33
       2.563     0.750000        73180         4.00
       2.621     0.775000        75581         4.44
       2.683     0.800000        78033         5.00
       2.749     0.825000        80459         5.71
       2.821     0.850000        82904         6.67
       2.901     0.875000        85304         8.00
       2.947     0.887500        86514         8.89
       2.997     0.900000        87738        10.00
       3.055     0.912500        88945        11.43
       3.121     0.925000        90182        13.33
       3.197     0.937500        91406        16.00
       3.241     0.943750        91992        17.78
       3.293     0.950000        92602        20.00
       3.353     0.956250        93213        22.86
       3.421     0.962500        93822        26.67
       3.501     0.968750        94436        32.00
       3.549     0.971875        94738        35.56
       3.597     0.975000        95043        40.00
       3.649     0.978125        95342        45.71
       3.715     0.981250        95646        53.33
       3.791     0.984375        95953        64.00
       3.829     0.985938        96111        71.11
       3.883     0.987500        96257        80.00
       3.933     0.989062        96408        91.43
       3.991     0.990625        96560       106.67
       4.065     0.992188        96713       128.00
       4.111     0.992969        96789       142.22
       4.171     0.993750        96869       160.00
       4.227     0.994531        96942       182.86
       4.291     0.995313        97018       213.33
       4.383     0.996094        97094       256.00
       4.435     0.996484        97131       284.44
       4.507     0.996875        97170       320.00
       4.563     0.997266        97208       365.71
       4.639     0.997656        97245       426.67
       4.747     0.998047        97283       512.00
       4.807     0.998242        97302       568.89
       4.919     0.998437        97321       640.00
       5.003     0.998633        97340       731.43
       5.127     0.998828        97359       853.33
       5.295     0.999023        97378      1024.00
       5.383     0.999121        97388      1137.78
       5.519     0.999219        97397      1280.00
       5.567     0.999316        97407      1462.86
       5.647     0.999414        97416      1706.67
       5.823     0.999512        97426      2048.00
       5.879     0.999561        97431      2275.56
       5.915     0.999609        97435      2560.00
       6.835     0.999658        97440      2925.71
       7.087     0.999707        97445      3413.33
       7.355     0.999756        97450      4096.00
       7.459     0.999780        97452      4551.11
       7.643     0.999805        97454      5120.00
       7.703     0.999829        97457      5851.43
       7.779     0.999854        97459      6826.67
       7.975     0.999878        97462      8192.00
       8.163     0.999890        97463      9102.22
       8.247     0.999902        97464     10240.00
       8.255     0.999915        97465     11702.86
       8.639     0.999927        97466     13653.33
       9.055     0.999939        97468     16384.00
       9.055     0.999945        97468     18204.44
       9.103     0.999951        97469     20480.00
       9.103     0.999957        97469     23405.71
       9.447     0.999963        97470     27306.67
      10.463     0.999969        97471     32768.00
      10.463     0.999973        97471     36408.89
      10.463     0.999976        97471     40960.00
      10.463     0.999979        97471     46811.43
      10.583     0.999982        97472     54613.33
      10.583     0.999985        97472     65536.00
      10.583     0.999986        97472     72817.78
      10.583     0.999988        97472     81920.00
      10.583     0.999989        97472     93622.86
      10.975     0.999991        97473    109226.67
      10.975     1.000000        97473          inf
#[Mean    =        2.018, StdDeviation   =        0.803]
#[Max     =       10.968, Total count    =        97473]
#[Buckets =           27, SubBuckets     =         2048]